Folder: Solid-Minds_MansouraHackathon2024

Note: README.md
# Solid-Minds_MansouraHackthon2024

File: concrete testing.csv
Sample ID,Cement (kg),Water (kg),Sand (kg),Gravel (kg),Age (days),Compressive Strength (MPa),Accepted
Sample_1,312.418,170.99,566.241,809.219,30,25.3215,Yes
Sample_7,339.48,163.428,600.06,1048.6,63,28.6515,Yes
Sample_13,306.049,181.129,561.543,871.284,63,50.5825,Yes
Sample_19,277.299,145.195,631.771,954.884,58,31.3986,Yes
Sample_25,286.39,175.913,449.024,813.026,29,30.7136,Yes
Sample_31,284.957,146.139,640.356,751.167,39,5.79581,No
Sample_37,305.222,131.614,619.621,965.745,57,40.5932,Yes
Sample_43,297.109,166.18,573.796,941.347,16,26.97,Yes
Sample_49,308.59,172.148,583.605,1042.55,42,8.01365,No
Sample_55,325.775,141.745,532.706,1173.49,48,45.0378,Yes
Sample_61,288.021,161.575,642.545,1031.75,60,55.1577,Yes
Sample_67,298.2,130.58,478.059,1175.49,59,23.2501,No
Sample_73,299.104,151.152,604.433,1020.23,36,39.7904,Yes
Sample_79,302.294,172.511,593.028,1023.4,64,44.8892,Yes
Sample_85,279.788,155.729,572.473,981.415,83,15.1151,No
Sample_91,302.427,148.926,616.337,818.202,22,28.7087,Yes
Sample_97,307.403,151.18,633.524,1104.17,21,42.328,Yes
Sample_103,291.432,181.326,556.517,1164.95,83,42.8084,Yes
Sample_109,306.439,140.643,583.569,1045.06,46,47.3534,Yes
Sample_115,295.191,152.256,637.041,1038.9,10,34.5928,Yes
Sample_121,319.776,166.583,720.631,951.644,46,49.2233,Yes
Sample_127,275.237,154.54,540.959,809.064,86,30.5078,Yes
Sample_133,273.442,174.206,633.643,826.88,15,13.2324,No
Sample_139,320.338,158.961,538.045,1047.35,62,11.6319,No
Sample_145,306.497,147.404,588.84,1043.23,48,57.0001,Yes
Sample_151,306.262,135.129,591.207,1084.2,62,50.4558,Yes
Sample_157,346.644,139.678,581.24,876.257,44,9.21719,No
Sample_163,328.965,129.156,624.911,954.091,16,43.5288,Yes
Sample_169,293.865,158.921,588.299,990.338,31,46.9052,Yes
Sample_175,306.917,138.691,558.243,899.778,59,-4.40295,No
Sample_181,315.642,152.698,590.498,1097.84,10,38.1156,Yes
Sample_187,311.831,135.263,528.802,880.321,48,40.7186,Yes
Sample_193,305.352,140.979,701.215,1228.17,23,36.3633,Yes
Sample_199,301.455,153.359,567.926,962.768,68,0.254361,No
Sample_205,265.558,150.733,552.178,904.768,65,24.8723,No
Sample_211,314.272,131.342,537.48,1118.35,37,45.0168,Yes
Sample_217,280.679,139.898,578.164,834.338,55,48.8075,Yes
Sample_223,317.157,159.507,637.21,1137.05,74,22.6419,No
Sample_229,282.117,164.458,506.673,1077.93,55,44.5072,Yes
Sample_235,353.599,137.945,539.441,871.954,37,2.35773,No
Sample_241,280.187,144.313,605.295,1001.25,22,19.8268,No
Sample_247,288.126,150.511,555.061,1044.13,83,-1.02898,No
Sample_253,353.054,120.094,527.441,1063.87,68,42.0615,Yes
Sample_259,311.095,139.425,469.789,1118.67,50,33.9835,Yes
Sample_265,293.686,152.54,634.011,1066.54,16,32.5373,Yes
Sample_271,336.032,166.37,617.384,978.433,16,79.0988,Yes
Sample_277,304.976,184.79,633.969,1117.02,84,13.8631,No
Sample_283,339.65,160.622,659.705,784.762,64,18.3537,No
Sample_289,307.025,133.45,570.124,937.227,44,34.7478,Yes
Sample_295,308.925,151.227,558.478,879.298,19,13.8828,No
Sample_301,279.275,139.979,652.597,1033.86,16,27.5604,Yes
Sample_307,331.942,150.423,630.336,1053.2,27,27.1544,Yes
Sample_313,320.635,170.853,611.504,1208.6,34,48.1136,Yes
Sample_319,308.104,140.857,572.085,1112.19,63,54.1129,Yes
Sample_325,274.85,150.967,599.72,1110.39,46,39.8324,Yes
Sample_331,299.694,172.961,585.302,1091.38,62,49.1917,Yes
Sample_337,279.363,140.799,625.033,863.418,72,30.36,Yes
Sample_343,306.124,156.554,624.601,897.363,48,32.4648,Yes
Sample_349,282.039,129.497,634.674,1067.89,53,28.1505,Yes
Sample_355,299.525,141.352,660.597,940.619,75,37.676,Yes
Sample_361,312.984,149.77,548.531,884.667,42,25.1047,Yes
Sample_367,305.602,149.59,573.21,947.412,36,17.0117,No
Sample_373,336.279,129.421,608.001,1145.09,57,21.0625,No
Sample_379,354.745,140.916,579.327,1050.6,63,40.309,Yes
Sample_385,281.022,161.131,601.64,1110.59,81,41.5666,Yes
Sample_391,277.54,156.9,507.691,842.3,15,-4.29833,No
Sample_397,257.172,129.793,553.907,1050.56,33,41.978,Yes
Sample_403,300.131,167.786,572.666,1019.55,7,4.62119,No
Sample_409,303.007,145.16,640.57,977.753,52,21.9254,No
Sample_415,308.308,140.347,650.883,944.988,88,34.0822,Yes
Sample_421,351.519,158.074,652.366,939.265,42,32.8614,Yes
Sample_427,275.877,180.843,628.603,1025.26,78,16.2266,No
Sample_433,293.265,162.907,598.822,1052.23,36,43.4501,Yes
Sample_439,257.415,157.365,578.162,871.169,82,52.7774,Yes
Sample_445,267.388,155.995,574.851,1069.54,54,44.0828,Yes
Sample_451,298.433,154.632,554.19,952.235,7,41.3905,Yes
Sample_457,297.324,161.3,570.997,1108.88,48,43.5806,Yes
Sample_463,282.507,146.865,624.112,1015.67,23,27.4922,Yes
Sample_469,286.737,132.062,634.166,954.545,76,31.9937,Yes
Sample_475,341.124,138.227,615.191,928.298,21,36.019,Yes
Sample_481,296.802,160.836,569.707,969.782,9,15.9202,No
Sample_487,283.836,128.725,580.643,1153.02,23,33.95,Yes
Sample_493,301.934,141.536,575.344,1049.62,23,11.8914,No
Sample_499,278.11,165.361,639.519,981.685,15,20.2219,No
Sample_505,283.734,147.447,545.742,949.822,30,35.9915,Yes
Sample_511,306.761,132.875,624.093,1122.08,60,27.9844,Yes
Sample_517,312.523,172.702,604.295,920.444,52,56.0512,Yes
Sample_523,283.434,146.603,618.374,903.434,42,26.8926,Yes
Sample_529,306.493,142.667,702.827,816.832,58,34.1811,Yes
Sample_535,283.704,143.009,579.132,1209.58,64,10.9289,No
Sample_541,320.892,149.587,564.521,1033.09,63,24.0623,No
Sample_547,314.427,135.024,531.119,1068.71,46,30.8459,Yes
Sample_553,329.195,136.83,693.548,1034.67,17,43.6176,Yes
Sample_559,309.861,172.39,616.391,988.687,78,29.382,Yes
Sample_565,330.03,161.053,555.233,1095.84,47,45.3358,Yes
Sample_571,300.46,161.914,601.912,970.252,86,36.2064,Yes
Sample_577,305.89,125.773,673.209,916.805,51,13.7248,No
Sample_583,315.82,134.763,597.344,1192.04,8,32.9234,Yes
Sample_589,320.758,137.586,559.998,1123.96,39,20.4728,No
Sample_595,325.938,114.556,642.422,1125.92,70,8.95294,No
Sample_601,318.925,147.257,506.172,917.606,88,24.8122,No
Sample_607,280.655,151.84,569.763,922.015,19,47.2467,Yes
Sample_613,306.999,163.247,589.925,982.091,51,29.0293,Yes
Sample_619,312.025,143.605,622.864,1119.48,32,27.3116,Yes
Sample_625,339.83,178.099,620.488,1189.78,44,80.0337,Yes
Sample_631,257.688,157.271,614.829,1059.64,25,59.1042,Yes
Sample_637,320.579,135.673,609.532,966.088,10,11.9404,No
Sample_643,293.51,148.805,557.618,901.004,81,41.0157,Yes
Sample_649,294.227,167.811,600.781,1078.29,42,45.1121,Yes
Sample_655,364.334,155.077,567.108,1014.94,37,21.3541,No
Sample_661,285.658,169.757,541.22,963.996,69,48.3983,Yes
Sample_667,293.626,135.01,642.409,1073.14,75,50.7604,Yes
Sample_673,291.433,144.124,613.022,885.698,37,12.6899,No
Sample_679,323.392,164.975,604.767,1119.17,55,22.8222,No
Sample_685,269.447,132.314,616.753,1060.31,78,57.2971,Yes
Sample_691,290.976,158.8,549.166,1053.34,43,55.1486,Yes
Sample_697,308.153,134.995,654.088,942.825,61,34.2875,Yes
Sample_703,282.391,159.521,700.614,908.368,64,44.99,Yes
Sample_709,247.952,148.01,582.429,1042.41,77,19.6384,No
Sample_715,299.059,141.97,618.382,1101.26,26,24.4588,No
Sample_721,307.695,157.697,697.708,1099.56,21,39.0852,Yes
Sample_727,300.461,141.961,650.573,1049.69,43,26.4552,Yes
Sample_733,310.206,149.709,628.144,798.151,54,33.9412,Yes
Sample_739,341.637,164.255,677.708,962.942,35,28.9332,Yes
Sample_745,312.941,136.09,473.522,900.485,48,24.0214,No
Sample_751,276.919,109.452,687.774,941.407,52,42.6544,Yes
Sample_757,312.333,147.938,609.751,1010.34,80,8.54149,No
Sample_763,364.002,151.132,644.768,918.699,12,34.7459,Yes
Sample_769,284.326,151.848,574.179,1066.47,88,24.8809,No
Sample_775,315.545,138.863,575.442,822.893,30,36.3215,Yes
Sample_781,304.443,128.905,643.726,984.968,52,24.7635,No
Sample_787,320.848,145.362,561.5,1031.64,83,52.9612,Yes
Sample_793,306.789,147.598,579.35,1025.72,34,34.0294,Yes
Sample_799,300.708,166.14,582.019,900.664,85,1.62664,No
Sample_805,289.138,122.953,595.227,910.721,74,18.3926,No
Sample_811,295.328,142.754,594.162,900.614,88,22.7855,No
Sample_817,306.676,117.723,624.103,961.718,9,27.4283,Yes
Sample_823,357.472,146.627,597.555,995.511,54,47.8319,Yes
Sample_829,289.495,148.521,647.572,1118.19,26,23.1281,No
Sample_835,299.133,140.813,587.831,902.988,66,41.0741,Yes
Sample_841,298.763,148.072,614.781,938.568,61,22.6061,No
Sample_847,307.229,168.986,570.557,1109.09,57,12.7931,No
Sample_853,284.065,132.095,544.757,1129.61,58,58.6277,Yes
Sample_859,286.194,154.33,658.986,927.601,24,16.2767,No
Sample_865,284.68,169.565,620.43,962.814,45,1.64223,No
Sample_871,295.576,133.414,568.135,860.978,37,52.541,Yes
Sample_877,287.06,141.567,553.175,1095,20,29.8116,Yes
Sample_883,287.764,131.485,569.657,815.621,47,30.2148,Yes
Sample_889,314.766,142.892,580.749,1014.3,35,22.0283,No
Sample_895,334.554,148.675,625.413,960.695,38,39.7014,Yes
Sample_901,309.217,160.454,597.724,944.388,15,41.9326,Yes
Sample_907,266.004,126.437,579.19,1132.54,63,17.6228,No
Sample_913,306.235,159.571,563.452,1100.95,48,42.5451,Yes
Sample_919,288.839,147.478,604.903,1094.96,55,14.9073,No
Sample_925,329.876,181.111,604.588,973.734,68,19.221,No
Sample_931,286.12,131.557,643.458,1067.15,64,53.552,Yes
Sample_937,274.469,153.806,569.801,1124.95,43,16.8246,No
Sample_943,316.255,154.037,632.024,940.303,51,50.741,Yes
Sample_949,298.86,166.891,590.655,972.001,82,23.8073,No
Sample_955,297.946,141.065,552.554,941.935,32,29.6383,Yes
Sample_961,316.068,149.177,558.774,926.837,31,15.1477,No
Sample_967,283.09,147.04,617.625,1031.11,15,48.9515,Yes
Sample_973,321.016,159.839,531.584,1034.76,37,26.6266,Yes
Sample_979,260.402,138.407,627.174,1056.81,64,12.5249,No
Sample_985,299.91,164.297,517.256,1024.29,36,48.112,Yes
Sample_991,305.21,162.006,675.82,831.082,9,22.7911,No
Sample_997,344.942,149.602,612.888,792.219,49,36.8908,Yes
Sample_1000,314.315,138.826,592.237,1036.06,55,40.2294,Yes